{"data":[{"rt":15678.800000001502,"stimulus":"<DIV align='left'><div>&nbsp;</div><div>Please consider this information carefully before deciding whether to participate in this research.</div><div>&nbsp;</div><div>The purpose of this research is to examine which factors influence social judgment and decision-</div><div>making. You will be asked to make judgements about individuals and actions in social scenarios.</div><div>We are simply interested in your judgement. The study will take less than 1 hour to complete,</div><div>and you will receive less than $20 on Amazon Mechanical Turk. Your compensation and time</div><div>commitment are specified in the study description. There are no anticipated risks associated with</div><div>participating in this study. The effects of participating should be comparable to those you would</div><div>ordinarily experience from viewing a computer monitor and using a mouse or keyboard for a</div><div>similar amount of time. At the end of the study, we will provide an explanation of the questions</div><div>that motivate this line of research and will describe the potential implications.</div><div>&nbsp;</div><div>Your participation in this study is completely voluntary and you may refuse to participate or you</div><div>may choose to withdraw at any time without penalty or loss of benefits to you which are</div><div>otherwise entitled. Your participation in this study will remain confidential. No personally</div><div>identifiable information will be associated with your data. Also, all analyses of the data will be</div><div>averaged across all the participants, so your individual responses will never be specifically</div><div>analyzed.</div><div>&nbsp;</div><div>If you have questions or concerns about your participation or payment, or want to request a</div><div>summary of research findings, please contact Dr. Jonathan Phillips at</div><div><a href=mailto:Jonathan.S.Phillips@dartmouth.edu>Jonathan.S.Phillips@dartmouth.edu</a>.</div><div>&nbsp;</div><div>Please save a copy of this form for your records.</div><div>&nbsp;</div></DIV><div>Agreement:</div><DIV align='left'><div>The nature and purpose of this research have been sufficiently explained and I agree to</div><div>participate in this study. I understand that I am free to withdraw at any time without incurring</div><div>any penalty. Please consent by clicking the button below to continue. Otherwise, please exit the</div><div>study at any time.</div><div>&nbsp;</div></DIV>","button_pressed":"0","trial_type":"html-button-response","trial_index":0,"time_elapsed":15684,"internal_node_id":"0.0-0.0","turk_code":"2lrbq5bjf25j"},{"rt":742.3100000014529,"stimulus":"<div class='center-content'><br><br><br><br>Welcome to the HIT. Press any key to begin.","key_press":32,"trial_type":"html-keyboard-response","trial_index":1,"time_elapsed":16429,"internal_node_id":"0.0-1.0","turk_code":"2lrbq5bjf25j"},{"rt":1372.8049999990617,"responses":"{\"subject_id\":\"d\"}","trial_type":"survey-text","trial_index":2,"time_elapsed":17806,"internal_node_id":"0.0-2.0","turk_code":"2lrbq5bjf25j"},{"rt":120.23500000213971,"stimulus":"In this experiment, you will be asked to compare two zoo animals. Please list whatever similarities and differences come to mind. <br><br>Press any key to begin.","key_press":68,"trial_type":"html-keyboard-response","trial_index":3,"time_elapsed":17927,"internal_node_id":"0.0-3.0","turk_code":"2lrbq5bjf25j"},{"rt":1949.1699999998673,"responses":"{\"dolphin gorilla\":\"d\",\"Q1\":\"d\",\"Q2\":\"d\",\"Q3\":\"d\",\"Q4\":\"d\",\"Q5\":\"d\",\"Q6\":\"d\",\"Q7\":\"d\"}","trial_type":"survey-text","trial_index":4,"time_elapsed":19883,"internal_node_id":"0.0-4.0","turk_code":"2lrbq5bjf25j"},{"rt":1845.7999999991443,"responses":"{\"cheetah turtle\":\"d\",\"Q1\":\"d\",\"Q2\":\"d\",\"Q3\":\"d\",\"Q4\":\"d\",\"Q5\":\"d\",\"Q6\":\"d\",\"Q7\":\"d\"}","trial_type":"survey-text","trial_index":5,"time_elapsed":21739,"internal_node_id":"0.0-5.0","turk_code":"2lrbq5bjf25j"},{"rt":2096.8750000029104,"responses":"{\"parrot alligator\":\"d\",\"Q1\":\"d\",\"Q2\":\"d\",\"Q3\":\"d\",\"Q4\":\"d\",\"Q5\":\"d\",\"Q6\":\"d\",\"Q7\":\"dd\"}","trial_type":"survey-text","trial_index":6,"time_elapsed":23844,"internal_node_id":"0.0-6.0","turk_code":"2lrbq5bjf25j"},{"rt":1826.3499999993655,"responses":"{\"rhino crocodile\":\"d\",\"Q1\":\"d\",\"Q2\":\"d\",\"Q3\":\"d\",\"Q4\":\"d\",\"Q5\":\"d\",\"Q6\":\"d\",\"Q7\":\"d\"}","trial_type":"survey-text","trial_index":7,"time_elapsed":25681,"internal_node_id":"0.0-7.0","turk_code":"2lrbq5bjf25j"},{"rt":1857.6350000003004,"responses":"{\"leopard peacock\":\"d\",\"Q1\":\"d\",\"Q2\":\"d\",\"Q3\":\"d\",\"Q4\":\"d\",\"Q5\":\"d\",\"Q6\":\"d\",\"Q7\":\"d\"}","trial_type":"survey-text","trial_index":8,"time_elapsed":27544,"internal_node_id":"0.0-8.0","turk_code":"2lrbq5bjf25j"},{"rt":1862.5250000004598,"responses":"{\"koala camal\":\"d\",\"Q1\":\"d\",\"Q2\":\"d\",\"Q3\":\"d\",\"Q4\":\"d\",\"Q5\":\"d\",\"Q6\":\"d\",\"Q7\":\"d\"}","trial_type":"survey-text","trial_index":9,"time_elapsed":29413,"internal_node_id":"0.0-9.0","turk_code":"2lrbq5bjf25j"},{"rt":1784.9350000033155,"responses":"{\"wolf gazelle\":\"d\",\"Q1\":\"d\",\"Q2\":\"d\",\"Q3\":\"d\",\"Q4\":\"d\",\"Q5\":\"d\",\"Q6\":\"d\",\"Q7\":\"d\"}","trial_type":"survey-text","trial_index":10,"time_elapsed":31209,"internal_node_id":"0.0-10.0","turk_code":"2lrbq5bjf25j"},{"rt":1973.3000000014727,"responses":"{\"chimp duck\":\"d\",\"Q1\":\"d\",\"Q2\":\"d\",\"Q3\":\"d\",\"Q4\":\"d\",\"Q5\":\"d\",\"Q6\":\"d\",\"Q7\":\"d\"}","trial_type":"survey-text","trial_index":11,"time_elapsed":33189,"internal_node_id":"0.0-11.0","turk_code":"2lrbq5bjf25j"},{"rt":1967.1900000030291,"responses":"{\"elephant penguin\":\"d\",\"Q1\":\"d\",\"Q2\":\"d\",\"Q3\":\"d\",\"Q4\":\"d\",\"Q5\":\"d\",\"Q6\":\"d\",\"Q7\":\"d\"}","trial_type":"survey-text","trial_index":12,"time_elapsed":35171,"internal_node_id":"0.0-12.0","turk_code":"2lrbq5bjf25j"},{"rt":1998.4699999986333,"responses":"{\"zebra owl\":\"d\",\"Q1\":\"d\",\"Q2\":\"d\",\"Q3\":\"d\",\"Q4\":\"d\",\"Q5\":\"d\",\"Q6\":\"d\",\"Q7\":\"d\"}","trial_type":"survey-text","trial_index":13,"time_elapsed":37176,"internal_node_id":"0.0-13.0","turk_code":"2lrbq5bjf25j"},{"rt":864.9650000006659,"responses":"{\"Q0\":\"d\",\"Q1\":\"d\",\"Q2\":\"d\",\"Q3\":\"d\"}","trial_type":"survey-text","trial_index":14,"time_elapsed":38046,"internal_node_id":"0.0-14.0","turk_code":"2lrbq5bjf25j"},{"rt":5076.740000000427,"responses":"{\"Q0\":\"Female\",\"Q1\":\"Yes\",\"Q2\":\"Some college or university\"}","question_order":"[0,1,2]","trial_type":"survey-multi-choice","trial_index":15,"time_elapsed":43128,"internal_node_id":"0.0-15.0","turk_code":"2lrbq5bjf25j"}]}